,intensity
0,0.03
1,0.04
2,0.05
3,0.06
4,0.07
5,0.08
6,0.09
7,0.1
8,0.2
9,0.3
10,0.4
11,0.5
12,0.6
13,0.7
14,0.8
15,0.9
16,1.0
17,2.0
18,3.0
19,4.0
20,5.0
21,6.0
22,7.0
23,8.0
24,9.0
25,10.0
26,20.0
27,30.0
28,40.0
29,50.0
30,60.0
31,70.0
32,80.0
33,90.0
34,100.0
35,200.0
36,300.0
37,400.0
38,500.0
39,600.0
40,700.0
41,800.0
42,900.0
43,1000.0
44,2000.0
45,3000.0
46,4000.0
47,5000.0
48,6000.0
49,7000.0
50,8000.0
51,9000.0
52,10000.0
53,20000.0
54,30000.0
